{
  "resourceType": "Bundle",
  "id": "jp-ePrescription-BundleSS",
  "meta": {
    "profile": [
      "https://healthdataworks.net/JP-ePrescription/StructureDefinition/Bundle2"
    ],
    "versionId": "1",
    "lastUpdated": "2021-06-04T05:41:01.804+00:00",
    "source": "#yrOLkRpigvoIfGbp"
  },
  "type": "document",
  "signature": {
    "url": "http://jpfhir.jp/fhir/ePrescription/StructureDefinition/Signature"
  },
  "identifier": {
    "system": "urn:ietf:rfc:3986",
    "value": "urn:uuid:0c3151bd-1cbf-4d64-b04d-cd9187a4c6e0"
  },
  "timestamp": "2020-08-21T12:12:21.000+00:00",
  "entry": [
    {
      "fullUrl": "urn:uuid:7038d706-ae0c-132b-f397-d2ca328e7af4",
      "resource": {
        "resourceType": "Composition",
        "id": "Inline-Instance-for-jp-ePrescription-BundleSS-1",
        "extension": [
          {
            "url": "http://hl7.org/fhir/StructureDefinition/composition-clinicaldocument-versionNumber",
            "valueString": "1.0"
          }
        ],
        "identifier": {
          "system": "urn:oid:1.2.392.100495.20.3.11",
          "value": "1311234567-2020-00123456"
        },
        "status": "final",
        "type": {
          "coding": [
            {
              "code": "01",
              "system": "urn:oid:1.2.392.100495.20.2.11",
              "display": "処方箋"
            }
          ]
        },
        "category": [
          {
            "coding": [
              {
                "code": "03",
                "system": "http://jpfhir.jp/fhir/ePrescription/CodeSystem/PrescriptionCategory",
                "display": "分割処方箋"
              }
            ]
          }
        ],
        "subject": {
          "reference": "Patient/jp-ePrescription-PatientSS"
        },
        "encounter": {
          "reference": "Encounter/jp-ePrescription-EncounterSS"
        },
        "date": "2020-08-21T12:12:21+09:00",
        "author": [
          {
            "reference": "Organization/jp-ePrescription-Organization3SS"
          }
        ],
        "title": "分割処方箋",
        "custodian": {
          "reference": "Organization/jp-ePrescription-Organization3SS"
        },
        "event": [
          {
            "code": [
              {
                "text": "処方箋交付"
              }
            ],
            "period": {
              "start": "2021-04-10T09:00:00+09:00",
              "end": "2021-04-10T10:00:00+09:00"
            }
          }
        ],
        "section": [
          {
            "title": "分割処方箋セクション",
            "code": {
              "coding": [
                {
                  "code": "11",
                  "system": "urn:oid:1.2.392.100495.20.2.12",
                  "display": "分割処方箋セクション"
                }
              ]
            },
            "text": {
              "status": "generated",
              "div": "<div xmlns=\"http://www.w3.org/1999/xhtml\">xxx</div>"
            },
            "entry": [
              {
                "reference": "urn:uuid:9495ef34-a77d-4f3e-8dce-5688e169d0fa"
              },
              {
                "reference": "urn:uuid:b0025d4d-3002-4f5e-fb4e-abead28aee35"
              },
              {
                "reference": "urn:uuid:df8b4e6a-5d45-f4ce-a1af-ff0ca94242b8"
              }
            ]
          },
          {
            "title": "別紙セクション",
            "code": {
              "coding": [
                {
                  "code": "12",
                  "system": "urn:oid:1.2.392.100495.20.2.12",
                  "display": "分割処方箋別紙セクション"
                }
              ]
            },
            "text": {
              "status": "generated",
              "div": "<div xmlns=\"http://www.w3.org/1999/xhtml\">xxx</div>"
            },
            "entry": [
              {
                "reference": "urn:uuid:ef7892cc-fb3a-b951-9ac7-f8cd6c746f0a"
              }
            ]
          }
        ]
      }
    },
    {
      "fullUrl": "urn:uuid:9495ef34-a77d-4f3e-8dce-5688e169d0fa",
      "resource": {
        "resourceType": "Bundle",
        "id": "Inline-Instance-for-jp-ePrescription-BundleSS-2",
        "identifier": {
          "system": "urn:ietf:rfc:3986",
          "value": "urn:uuid:3183BE72-A852-4A00-A795-56477F9868D8"
        },
        "type": "document",
        "timestamp": "2021-02-11T20:09:23.976+10:00",
        "entry": [
          {
            "fullUrl": "urn:uuid:180f219f-97a8-486d-99d9-ed631fe4fc57",
            "resource": {
              "resourceType": "Composition",
              "identifier": {
                "system": "urn:oid:1.2.392.100495.20.3.11",
                "value": "1311234567-2020-00123456"
              },
              "status": "final",
              "type": {
                "coding": [
                  {
                    "code": "01",
                    "system": "urn:oid:1.2.392.100495.20.2.11",
                    "display": "処方箋"
                  }
                ]
              },
              "date": "2020-08-21T12:28:21+09:00",
              "author": [
                {
                  "reference": "Organization/jp-ePrescription-Organization3SS"
                }
              ],
              "title": "分割処方箋"
            }
          },
          {
            "fullUrl": "urn:uuid:92834f52-7e62-1840-5c10-771084179379",
            "resource": {
              "resourceType": "Organization",
              "id": "jp-ePrescription-Organization3SS",
              "text": {
                "status": "generated",
                "div": "<div xmlns=\"http://www.w3.org/1999/xhtml\"><ul><li>診療科：01 内科</li></ul></div>"
              },
              "type": [
                {
                  "coding": [
                    {
                      "code": "dept",
                      "system": "http://terminology.hl7.org/CodeSystem/organization-type"
                    }
                  ]
                }
              ],
              "name": "内科",
              "partOf": {
                "reference": "Organization/jp-ePrescription-Organization2SS"
              }
            }
          }
        ]
      }
    },
    {
      "fullUrl": "urn:uuid:b0025d4d-3002-4f5e-fb4e-abead28aee35",
      "resource": {
        "resourceType": "Bundle",
        "id": "Inline-Instance-for-jp-ePrescription-BundleSS-3",
        "identifier": {
          "system": "urn:ietf:rfc:3986",
          "value": "urn:uuid:3183BE72-A852-4A00-A795-56477F9868D8"
        },
        "type": "document",
        "timestamp": "2021-02-11T20:09:23.976+10:00",
        "entry": [
          {
            "fullUrl": "urn:uuid:180f219f-97a8-486d-99d9-ed631fe4fc57",
            "resource": {
              "resourceType": "Composition",
              "identifier": {
                "system": "urn:oid:1.2.392.100495.20.3.11",
                "value": "1311234567-2020-00123456"
              },
              "status": "final",
              "type": {
                "coding": [
                  {
                    "code": "01",
                    "system": "urn:oid:1.2.392.100495.20.2.11",
                    "display": "処方箋"
                  }
                ]
              },
              "date": "2020-08-21T12:28:21+09:00",
              "author": [
                {
                  "reference": "Organization/jp-ePrescription-Organization3SS"
                }
              ],
              "title": "分割処方箋"
            }
          },
          {
            "fullUrl": "urn:uuid:92834f52-7e62-1840-5c10-771084179379",
            "resource": {
              "resourceType": "Organization",
              "id": "jp-ePrescription-Organization3SS",
              "text": {
                "status": "generated",
                "div": "<div xmlns=\"http://www.w3.org/1999/xhtml\"><ul><li>診療科：01 内科</li></ul></div>"
              },
              "type": [
                {
                  "coding": [
                    {
                      "code": "dept",
                      "system": "http://terminology.hl7.org/CodeSystem/organization-type"
                    }
                  ]
                }
              ],
              "name": "内科",
              "partOf": {
                "reference": "Organization/jp-ePrescription-Organization2SS"
              }
            }
          }
        ]
      }
    },
    {
      "fullUrl": "urn:uuid:df8b4e6a-5d45-f4ce-a1af-ff0ca94242b8",
      "resource": {
        "resourceType": "Bundle",
        "id": "Inline-Instance-for-jp-ePrescription-BundleSS-4",
        "identifier": {
          "system": "urn:ietf:rfc:3986",
          "value": "urn:uuid:3183BE72-A852-4A00-A795-56477F9868D8"
        },
        "type": "document",
        "timestamp": "2021-02-11T20:09:23.976+10:00",
        "entry": [
          {
            "fullUrl": "urn:uuid:180f219f-97a8-486d-99d9-ed631fe4fc57",
            "resource": {
              "resourceType": "Composition",
              "identifier": {
                "system": "urn:oid:1.2.392.100495.20.3.11",
                "value": "1311234567-2020-00123456"
              },
              "status": "final",
              "type": {
                "coding": [
                  {
                    "code": "01",
                    "system": "urn:oid:1.2.392.100495.20.2.11",
                    "display": "処方箋"
                  }
                ]
              },
              "date": "2020-08-21T12:28:21+09:00",
              "author": [
                {
                  "reference": "Organization/jp-ePrescription-Organization3SS"
                }
              ],
              "title": "分割処方箋"
            }
          },
          {
            "fullUrl": "urn:uuid:92834f52-7e62-1840-5c10-771084179379",
            "resource": {
              "resourceType": "Organization",
              "id": "jp-ePrescription-Organization3SS",
              "text": {
                "status": "generated",
                "div": "<div xmlns=\"http://www.w3.org/1999/xhtml\"><ul><li>診療科：01 内科</li></ul></div>"
              },
              "type": [
                {
                  "coding": [
                    {
                      "code": "dept",
                      "system": "http://terminology.hl7.org/CodeSystem/organization-type"
                    }
                  ]
                }
              ],
              "name": "内科",
              "partOf": {
                "reference": "Organization/jp-ePrescription-Organization2SS"
              }
            }
          }
        ]
      }
    },
    {
      "fullUrl": "urn:uuid:ef7892cc-fb3a-b951-9ac7-f8cd6c746f0a",
      "resource": {
        "resourceType": "Organization",
        "id": "Inline-Instance-for-jp-ePrescription-BundleSS-5",
        "meta": {
          "profile": [
            "https://healthdataworks.net/JP-ePrescription/StructureDefinition/Organization"
          ]
        },
        "type": [
          {
            "coding": [
              {
                "system": "http://terminology.hl7.org/CodeSystem/organization-type",
                "code": "prov"
              }
            ]
          }
        ],
        "extension": [
          {
            "url": "http://jpfhir.jp/fhir/ePrescription/StructureDefinition/PrefectureNo",
            "valueIdentifier": {
              "system": "urn:oid:1.2.392.100495.20.3.21",
              "value": "13"
            }
          },
          {
            "url": "http://jpfhir.jp/fhir/ePrescription/StructureDefinition/OrganizationCategory",
            "valueIdentifier": {
              "system": "urn:oid:1.2.392.100495.20.3.22",
              "value": "1"
            }
          },
          {
            "url": "http://jpfhir.jp/fhir/ePrescription/StructureDefinition/OrganizationNo",
            "valueIdentifier": {
              "system": "urn:oid:1.2.392.100495.20.3.23",
              "value": "1234567"
            }
          }
        ],
        "identifier": [
          {
            "system": "http://jpfhir.jp/fhir/ePrescription/InsuranceMedicalInstitutionNo",
            "value": "1311234567"
          }
        ],
        "name": "厚生労働省第一病院",
        "telecom": [
          {
            "system": "phone",
            "value": "0123-456-7890"
          },
          {
            "system": "fax",
            "value": "0123-456-7891"
          },
          {
            "system": "other",
            "value": "090-9999-9999"
          }
        ]
      }
    },
    {
      "fullUrl": "urn:uuid:11f0a9a6-a91d-3aef-fc4e-069995b89c4f",
      "resource": {
        "resourceType": "Patient",
        "id": "jp-ePrescription-PatientSS",
        "identifier": [
          {
            "system": "urn:oid:1.2.392.100495.20.3.51.11311234567",
            "value": "00000010"
          }
        ],
        "name": [
          {
            "extension": [
              {
                "url": "http://hl7.org/fhir/StructureDefinition/iso21090-EN-representation",
                "valueCode": "IDE"
              }
            ],
            "use": "official",
            "text": "東京太郎",
            "family": "東京",
            "given": [
              "太郎"
            ]
          },
          {
            "extension": [
              {
                "url": "http://hl7.org/fhir/StructureDefinition/iso21090-EN-representation",
                "valueCode": "SYL"
              }
            ],
            "use": "official",
            "text": "トウキョウタロウ",
            "family": "トウキョウ",
            "given": [
              "タロウ"
            ]
          }
        ],
        "gender": "male",
        "birthDate": "1920-02-11",
        "address": [
          {
            "text": "神奈川県横浜市港区１－２－３",
            "postalCode": "123-4567",
            "country": "JP"
          }
        ]
      }
    },
    {
      "fullUrl": "urn:uuid:92834f52-7e62-1840-5c10-771084179379",
      "resource": {
        "resourceType": "Organization",
        "id": "jp-ePrescription-Organization3SS",
        "meta": {
          "profile": [
            "https://healthdataworks.net/JP-ePrescription/StructureDefinition/Organization"
          ]
        },
        "type": [
          {
            "coding": [
              {
                "system": "http://terminology.hl7.org/CodeSystem/organization-type",
                "code": "dept"
              }
            ]
          }
        ],
        "name": "内科",
        "partOf": {
          "reference": "Organization/jp-ePrescription-Organization2SS"
        }
      }
    },
    {
      "fullUrl": "urn:uuid:12f0a9a6-a91d-8aef-d14e-069795b89c9f",
      "resource": {
        "resourceType": "Encounter",
        "id": "jp-ePrescription-EncounterSS",
        "meta": {
          "profile": [
            "https://healthdataworks.net/JP-ePrescription/StructureDefinition/Encounter"
          ]
        },
        "status": "finished",
        "class": {
          "system": "http://terminology.hl7.org/CodeSystem/v3-ActCode",
          "code": "AMB",
          "display": "外来"
        }
      }
    }
  ]
}
