<?xml version="1.0" encoding="UTF-8"?>
<Bundle
    xmlns="http://hl7.org/fhir">
    <id value="jp-ePrescription-BundleSS"/>
    <meta>
        <versionId value="1"/>
        <lastUpdated value="2021-06-04T05:41:01.804+00:00"/>
        <source value="#yrOLkRpigvoIfGbp"/>
        <profile value="https://healthdataworks.net/JP-ePrescription/StructureDefinition/Bundle2"/>
    </meta>
    <identifier>
        <system value="urn:ietf:rfc:3986"/>
        <value value="urn:uuid:0c3151bd-1cbf-4d64-b04d-cd9187a4c6e0"/>
    </identifier>
    <type value="document"/>
    <timestamp value="2020-08-21T12:12:21.000+00:00"/>
    <entry>
        <fullUrl value="urn:uuid:7038d706-ae0c-132b-f397-d2ca328e7af4"/>
        <resource>
            <Composition>
                <text>
                    <status value="generated"/>
                    <div
                        xmlns="http://www.w3.org/1999/xhtml">
                        <p>xxx</p>
                    </div>
                </text>
                <extension url="http://hl7.org/fhir/StructureDefinition/composition-clinicaldocument-versionNumber">
                    <valueString value="1.0"/>
                </extension>
                <identifier>
                    <system value="urn:oid:1.2.392.100495.20.3.11"/>
                    <value value="1311234567-2020-00123456"/>
                </identifier>
                <status value="final"/>
                <type>
                    <coding>
                        <system value="urn:oid:1.2.392.100495.20.2.11"/>
                        <code value="01"/>
                        <display value="処方箋"/>
                    </coding>
                </type>
                <category>
                    <coding>
                        <system value="http://jpfhir.jp/fhir/ePrescription/CodeSystem/PrescriptionCategory"/>
                        <code value="03"/>
                        <display value="分割処方箋"/>
                    </coding>
                </category>
                <subject>
                    <reference value="Patient/jp-ePrescription-PatientSS"/>
                </subject>
                <encounter>
                    <reference value="Encounter/jp-ePrescription-EncounterSS"/>
                </encounter>
                <date value="2020-08-21T12:12:21+09:00"/>
                <author>
                    <reference value="Organization/jp-ePrescription-Organization3SS"/>
                </author>
                <title value="分割処方箋"/>
                <custodian>
                    <reference value="Organization/jp-ePrescription-Organization3SS"/>
                </custodian>
                <event>
                    <code>
                        <text value="処方箋交付"/>
                    </code>
                    <period>
                        <start value="2021-04-10T09:00:00+09:00"/>
                        <end value="2021-04-10T10:00:00+09:00"/>
                    </period>
                </event>
                <section>
                    <title value="分割処方箋セクション"/>
                    <code>
                        <coding>
                            <system value="urn:oid:1.2.392.100495.20.2.12"/>
                            <code value="11"/>
                            <display value="分割処方箋セクション"/>
                        </coding>
                    </code>
                    <text>
                        <status value="generated"/>
                        <div
                            xmlns="http://www.w3.org/1999/xhtml">xxx
                        
                        
                        
                        </div>
                    </text>
                    <entry>
                        <reference value="urn:uuid:9495ef34-a77d-4f3e-8dce-5688e169d0fa"/>
                    </entry>
                    <entry>
                        <reference value="urn:uuid:b0025d4d-3002-4f5e-fb4e-abead28aee35"/>
                    </entry>
                    <entry>
                        <reference value="urn:uuid:df8b4e6a-5d45-f4ce-a1af-ff0ca94242b8"/>
                    </entry>
                </section>
                <section>
                    <title value="別紙セクション"/>
                    <code>
                        <coding>
                            <system value="urn:oid:1.2.392.100495.20.2.12"/>
                            <code value="12"/>
                            <display value="分割処方箋別紙セクション"/>
                        </coding>
                    </code>
                    <text>
                        <status value="generated"/>
                        <div
                            xmlns="http://www.w3.org/1999/xhtml">xxx
                        
                        
                        
                        </div>
                    </text>
                    <entry>
                        <reference value="urn:uuid:ef7892cc-fb3a-b951-9ac7-f8cd6c746f0a"/>
                    </entry>
                </section>
            </Composition>
        </resource>
    </entry>
    <entry>
        <fullUrl value="urn:uuid:9495ef34-a77d-4f3e-8dce-5688e169d0fa"/>
        <resource>
            <Bundle>
                <identifier>
                    <system value="urn:ietf:rfc:3986"/>
                    <value value="urn:uuid:3183BE72-A852-4A00-A795-56477F9868D8"/>
                </identifier>
                <type value="document"/>
                <timestamp value="2021-02-11T20:09:23.976+10:00"/>
                <entry>
                    <fullUrl value="urn:uuid:180f219f-97a8-486d-99d9-ed631fe4fc57"/>
                    <resource>
                        <Composition>
                            <identifier>
                                <system value="urn:oid:1.2.392.100495.20.3.11"/>
                                <value value="1311234567-2020-00123456"/>
                            </identifier>
                            <status value="final"/>
                            <type>
                                <coding>
                                    <system value="urn:oid:1.2.392.100495.20.2.11"/>
                                    <code value="01"/>
                                    <display value="処方箋"/>
                                </coding>
                            </type>
                            <date value="2020-08-21T12:28:21+09:00"/>
                            <author>
                                <reference value="Organization/jp-ePrescription-Organization3SS"/>
                            </author>
                            <title value="分割処方箋"/>
                        </Composition>
                    </resource>
                </entry>
                <entry>
                    <fullUrl value="urn:uuid:92834f52-7e62-1840-5c10-771084179379"/>
                    <resource>
                        <Organization>
                            <id value="jp-ePrescription-Organization3SS"/>
                            <text>
                                <status value="generated"/>
                                <div
                                    xmlns="http://www.w3.org/1999/xhtml">
                                    <ul>
                                        <li>診療科：01 内科</li>
                                    </ul>
                                </div>
                            </text>
                            <type>
                                <coding>
                                    <system value="http://terminology.hl7.org/CodeSystem/organization-type"/>
                                    <code value="dept"/>
                                </coding>
                            </type>
                            <name value="内科"/>
                            <partOf>
                                <reference value="Organization/jp-ePrescription-Organization2SS"/>
                            </partOf>
                        </Organization>
                    </resource>
                </entry>
            </Bundle>
        </resource>
    </entry>
    <entry>
        <fullUrl value="urn:uuid:b0025d4d-3002-4f5e-fb4e-abead28aee35"/>
        <resource>
            <Bundle>
                <identifier>
                    <system value="urn:ietf:rfc:3986"/>
                    <value value="urn:uuid:3183BE72-A852-4A00-A795-56477F9868D8"/>
                </identifier>
                <type value="document"/>
                <timestamp value="2021-02-11T20:09:23.976+10:00"/>
                <entry>
                    <fullUrl value="urn:uuid:180f219f-97a8-486d-99d9-ed631fe4fc57"/>
                    <resource>
                        <Composition>
                            <identifier>
                                <system value="urn:oid:1.2.392.100495.20.3.11"/>
                                <value value="1311234567-2020-00123456"/>
                            </identifier>
                            <status value="final"/>
                            <type>
                                <coding>
                                    <system value="urn:oid:1.2.392.100495.20.2.11"/>
                                    <code value="01"/>
                                    <display value="処方箋"/>
                                </coding>
                            </type>
                            <date value="2020-08-21T12:28:21+09:00"/>
                            <author>
                                <reference value="Organization/jp-ePrescription-Organization3SS"/>
                            </author>
                            <title value="分割処方箋"/>
                        </Composition>
                    </resource>
                </entry>
                <entry>
                    <fullUrl value="urn:uuid:92834f52-7e62-1840-5c10-771084179379"/>
                    <resource>
                        <Organization>
                            <id value="jp-ePrescription-Organization3SS"/>
                            <text>
                                <status value="generated"/>
                                <div
                                    xmlns="http://www.w3.org/1999/xhtml">
                                    <ul>
                                        <li>診療科：01 内科</li>
                                    </ul>
                                </div>
                            </text>
                            <type>
                                <coding>
                                    <system value="http://terminology.hl7.org/CodeSystem/organization-type"/>
                                    <code value="dept"/>
                                </coding>
                            </type>
                            <name value="内科"/>
                            <partOf>
                                <reference value="Organization/jp-ePrescription-Organization2SS"/>
                            </partOf>
                        </Organization>
                    </resource>
                </entry>
            </Bundle>
        </resource>
    </entry>
    <entry>
        <fullUrl value="urn:uuid:df8b4e6a-5d45-f4ce-a1af-ff0ca94242b8"/>
        <resource>
            <Bundle>
                <identifier>
                    <system value="urn:ietf:rfc:3986"/>
                    <value value="urn:uuid:3183BE72-A852-4A00-A795-56477F9868D8"/>
                </identifier>
                <type value="document"/>
                <timestamp value="2021-02-11T20:09:23.976+10:00"/>
                <entry>
                    <fullUrl value="urn:uuid:180f219f-97a8-486d-99d9-ed631fe4fc57"/>
                    <resource>
                        <Composition>
                            <identifier>
                                <system value="urn:oid:1.2.392.100495.20.3.11"/>
                                <value value="1311234567-2020-00123456"/>
                            </identifier>
                            <status value="final"/>
                            <type>
                                <coding>
                                    <system value="urn:oid:1.2.392.100495.20.2.11"/>
                                    <code value="01"/>
                                    <display value="処方箋"/>
                                </coding>
                            </type>
                            <date value="2020-08-21T12:28:21+09:00"/>
                            <author>
                                <reference value="Organization/jp-ePrescription-Organization3SS"/>
                            </author>
                            <title value="分割処方箋"/>
                        </Composition>
                    </resource>
                </entry>
                <entry>
                    <fullUrl value="urn:uuid:92834f52-7e62-1840-5c10-771084179379"/>
                    <resource>
                        <Organization>
                            <id value="jp-ePrescription-Organization3SS"/>
                            <text>
                                <status value="generated"/>
                                <div
                                    xmlns="http://www.w3.org/1999/xhtml">
                                    <ul>
                                        <li>診療科：01 内科</li>
                                    </ul>
                                </div>
                            </text>
                            <type>
                                <coding>
                                    <system value="http://terminology.hl7.org/CodeSystem/organization-type"/>
                                    <code value="dept"/>
                                </coding>
                            </type>
                            <name value="内科"/>
                            <partOf>
                                <reference value="Organization/jp-ePrescription-Organization2SS"/>
                            </partOf>
                        </Organization>
                    </resource>
                </entry>
            </Bundle>
        </resource>
    </entry>
    <entry>
        <fullUrl value="urn:uuid:ef7892cc-fb3a-b951-9ac7-f8cd6c746f0a"/>
        <resource>
            <Organization>
                <text>
                    <status value="generated"/>
                    <div
                        xmlns="http://www.w3.org/1999/xhtml">
                        <ul>
                            <li>1311234567</li>
                            <li>厚生労働省第一病院</li>
                            <li>〒100-0001 東京都千代田区千代田９－９－９</li>
                            <li>0123-456-7890</li>
                        </ul>
                    </div>
                </text>
                <extension url="http://jpfhir.jp/fhir/ePrescription/StructureDefinition/PrefectureNo">
                    <valueIdentifier>
                        <system value="urn:oid:1.2.392.100495.20.3.21"/>
                        <value value="13"/>
                    </valueIdentifier>
                </extension>
                <extension url="http://jpfhir.jp/fhir/ePrescription/StructureDefinition/OrganizationCategory">
                    <valueIdentifier>
                        <system value="urn:oid:1.2.392.100495.20.3.22"/>
                        <value value="1"/>
                    </valueIdentifier>
                </extension>
                <extension url="http://jpfhir.jp/fhir/ePrescription/StructureDefinition/OrganizationNo">
                    <valueIdentifier>
                        <system value="urn:oid:1.2.392.100495.20.3.23"/>
                        <value value="1234567"/>
                    </valueIdentifier>
                </extension>
                <identifier>
                    <system value="http://jpfhir.jp/fhir/ePrescription/InsuranceMedicalInstitutionNo"/>
                    <value value="1311234567"/>
                </identifier>
                <type>
                    <coding>
                        <system value="http://terminology.hl7.org/CodeSystem/organization-type"/>
                        <code value="prov"/>
                    </coding>
                </type>
                <name value="厚生労働省第一病院"/>
                <telecom>
                    <system value="phone"/>
                    <value value="0123-456-7890"/>
                </telecom>
                <telecom>
                    <system value="fax"/>
                    <value value="0123-456-7891"/>
                </telecom>
                <telecom>
                    <system value="other"/>
                    <value value="090-9999-9999"/>
                </telecom>
            </Organization>
        </resource>
    </entry>
    <entry>
        <fullUrl value="urn:uuid:11f0a9a6-a91d-3aef-fc4e-069995b89c4f"/>
        <resource>
            <Patient>
                <id value="jp-ePrescription-PatientSS"/>
                <text>
                    <status value="generated"/>
                    <div
                        xmlns="http://www.w3.org/1999/xhtml">00000010：東京太郎（トウキョウタロウ） 男性 1920年2月11日生 123-4567 神奈川県横浜市港区１－２－３
                    
                    
                    
                    </div>
                </text>
                <identifier>
                    <system value="urn:oid:1.2.392.100495.20.3.51.11311234567"/>
                    <value value="00000010"/>
                </identifier>
                <name>
                    <extension url="http://hl7.org/fhir/StructureDefinition/iso21090-EN-representation">
                        <valueCode value="IDE"/>
                    </extension>
                    <use value="official"/>
                    <text value="東京太郎"/>
                    <family value="東京"/>
                    <given value="太郎"/>
                </name>
                <name>
                    <extension url="http://hl7.org/fhir/StructureDefinition/iso21090-EN-representation">
                        <valueCode value="SYL"/>
                    </extension>
                    <use value="official"/>
                    <text value="トウキョウタロウ"/>
                    <family value="トウキョウ"/>
                    <given value="タロウ"/>
                </name>
                <gender value="male"/>
                <birthDate value="1920-02-11"/>
                <address>
                    <text value="神奈川県横浜市港区１－２－３"/>
                    <postalCode value="123-4567"/>
                    <country value="JP"/>
                </address>
            </Patient>
        </resource>
    </entry>
    <entry>
        <fullUrl value="urn:uuid:92834f52-7e62-1840-5c10-771084179379"/>
        <resource>
            <Organization>
                <id value="jp-ePrescription-Organization3SS"/>
                <text>
                    <status value="generated"/>
                    <div
                        xmlns="http://www.w3.org/1999/xhtml">
                        <ul>
                            <li>診療科：01 内科</li>
                        </ul>
                    </div>
                </text>
                <type>
                    <coding>
                        <system value="http://terminology.hl7.org/CodeSystem/organization-type"/>
                        <code value="dept"/>
                    </coding>
                </type>
                <name value="内科"/>
                <partOf>
                    <reference value="Organization/jp-ePrescription-Organization2SS"/>
                </partOf>
            </Organization>
        </resource>
    </entry>
    <entry>
        <fullUrl value="urn:uuid:12f0a9a6-a91d-8aef-d14e-069795b89c9f"/>
        <resource>
            <Encounter>
                <id value="jp-ePrescription-EncounterSS"/>
                <text>
                    <status value="generated"/>
                    <div
                        xmlns="http://www.w3.org/1999/xhtml">外来
                    
                    
                    
                    </div>
                </text>
                <status value="finished"/>
                <class>
                    <system value="http://terminology.hl7.org/CodeSystem/v3-ActCode"/>
                    <code value="AMB"/>
                    <display value="外来"/>
                </class>
            </Encounter>
        </resource>
    </entry>
    <signature>
        <type>
            <system value="urn:iso-astm:E1762-95:2013"/>
            <code value="1.2.840.10065.1.12.1.1"/>
            <display value="作成者の署名"/>
        </type>
        <when value="2021-02-01T13:28:18.345+09:00"/>
        <who>
            <reference value="Practitioner/jp-ePrescription-PractitionerSS"/>
        </who>
        <data value="dCjftJeZ4CVP+mB92K28uhbUJU1p1r/wW1gFWFODjXk="/>
    </signature>
</Bundle>